"IASEQ","DCO","USUBJID","PARAMCD","STARTDT","ADT","AVAL","AVALU","CNSR","TRTP","ANL01FL"
1,"2025-01-21","H001","OS","2025-01-01","2025-01-02",2,"DAYS",0,"Control","Y"
1,"2025-01-21","H002","OS","2025-01-01","2025-01-03",3,"DAYS",0,"Treatment","Y"
1,"2025-01-21","H003","OS","2025-01-01","2025-01-04",4,"DAYS",0,"Control","Y"
1,"2025-01-21","H004","OS","2025-01-01","2025-01-05",5,"DAYS",0,"Treatment","Y"
1,"2025-01-21","H005","OS","2025-01-01","2025-01-06",6,"DAYS",0,"Control","Y"
1,"2025-01-21","H006","OS","2025-01-01","2025-01-07",7,"DAYS",0,"Treatment","Y"
1,"2025-01-21","H007","OS","2025-01-01","2025-01-08",8,"DAYS",0,"Control","Y"
1,"2025-01-21","H008","OS","2025-01-01","2025-01-09",9,"DAYS",0,"Treatment","Y"
1,"2025-01-21","H009","OS","2025-01-01","2025-01-10",10,"DAYS",0,"Control","Y"
1,"2025-01-21","H010","OS","2025-01-01","2025-01-11",11,"DAYS",0,"Treatment","Y"
1,"2025-01-21","H011","OS","2025-01-01","2025-01-12",12,"DAYS",0,"Control","Y"
1,"2025-01-21","H012","OS","2025-01-01","2025-01-13",13,"DAYS",0,"Treatment","Y"
1,"2025-01-21","H013","OS","2025-01-01","2025-01-14",14,"DAYS",0,"Control","Y"
1,"2025-01-21","H014","OS","2025-01-01","2025-01-15",15,"DAYS",0,"Treatment","Y"
1,"2025-01-21","H015","OS","2025-01-01","2025-01-16",16,"DAYS",0,"Control","Y"
1,"2025-01-21","H016","OS","2025-01-01","2025-01-17",17,"DAYS",0,"Treatment","Y"
1,"2025-01-21","H017","OS","2025-01-01","2025-01-18",18,"DAYS",0,"Control","Y"
1,"2025-01-21","H018","OS","2025-01-01","2025-01-19",19,"DAYS",0,"Treatment","Y"
1,"2025-01-21","H019","OS","2025-01-01","2025-01-20",20,"DAYS",0,"Control","Y"
1,"2025-01-21","H020","OS","2025-01-01","2025-01-21",21,"DAYS",0,"Treatment","Y"
1,"2025-01-21","H021","OS","2025-01-01","2025-01-21",21,"DAYS",1,"Control","Y"
1,"2025-01-21","H022","OS","2025-01-01","2025-01-21",21,"DAYS",1,"Treatment","Y"
1,"2025-01-21","H023","OS","2025-01-01","2025-01-21",21,"DAYS",1,"Control","Y"
1,"2025-01-21","H024","OS","2025-01-01","2025-01-21",21,"DAYS",1,"Treatment","Y"
1,"2025-01-21","H025","OS","2025-01-01","2025-01-21",21,"DAYS",1,"Control","Y"
1,"2025-01-21","H026","OS","2025-01-01","2025-01-21",21,"DAYS",1,"Treatment","Y"
1,"2025-01-21","H027","OS","2025-01-01","2025-01-21",21,"DAYS",1,"Control","Y"
1,"2025-01-21","H028","OS","2025-01-01","2025-01-21",21,"DAYS",1,"Treatment","Y"
1,"2025-01-21","H029","OS","2025-01-01","2025-01-21",21,"DAYS",1,"Control","Y"
1,"2025-01-21","H030","OS","2025-01-01","2025-01-21",21,"DAYS",1,"Treatment","Y"
1,"2025-01-21","H031","OS","2025-01-01","2025-01-21",21,"DAYS",1,"Control","Y"
1,"2025-01-21","H032","OS","2025-01-01","2025-01-21",21,"DAYS",1,"Treatment","Y"
1,"2025-01-21","H033","OS","2025-01-01","2025-01-21",21,"DAYS",1,"Control","Y"
1,"2025-01-21","H034","OS","2025-01-01","2025-01-21",21,"DAYS",1,"Treatment","Y"
1,"2025-01-21","H035","OS","2025-01-01","2025-01-21",21,"DAYS",1,"Control","Y"
1,"2025-01-21","H036","OS","2025-01-01","2025-01-21",21,"DAYS",1,"Treatment","Y"
1,"2025-01-21","H037","OS","2025-01-01","2025-01-21",21,"DAYS",1,"Control","Y"
1,"2025-01-21","H038","OS","2025-01-01","2025-01-21",21,"DAYS",1,"Treatment","Y"
1,"2025-01-21","H039","OS","2025-01-01","2025-01-21",21,"DAYS",1,"Control","Y"
1,"2025-01-21","H040","OS","2025-01-01","2025-01-21",21,"DAYS",1,"Treatment","Y"
1,"2025-01-21","H041","OS","2025-01-01","2025-01-21",21,"DAYS",1,"Control","Y"
1,"2025-01-21","H042","OS","2025-01-01","2025-01-21",21,"DAYS",1,"Treatment","Y"
1,"2025-01-21","H043","OS","2025-01-01","2025-01-21",21,"DAYS",1,"Control","Y"
1,"2025-01-21","H044","OS","2025-01-01","2025-01-21",21,"DAYS",1,"Treatment","Y"
1,"2025-01-21","H045","OS","2025-01-01","2025-01-21",21,"DAYS",1,"Control","Y"
1,"2025-01-21","H046","OS","2025-01-01","2025-01-21",21,"DAYS",1,"Treatment","Y"
1,"2025-01-21","H047","OS","2025-01-01","2025-01-21",21,"DAYS",1,"Control","Y"
1,"2025-01-21","H048","OS","2025-01-01","2025-01-21",21,"DAYS",1,"Treatment","Y"
1,"2025-01-21","H049","OS","2025-01-01","2025-01-21",21,"DAYS",1,"Control","Y"
1,"2025-01-21","H050","OS","2025-01-01","2025-01-21",21,"DAYS",1,"Treatment","Y"
1,"2025-01-21","H051","OS","2025-01-01","2025-01-21",21,"DAYS",1,"Control","Y"
1,"2025-01-21","H052","OS","2025-01-01","2025-01-21",21,"DAYS",1,"Treatment","Y"
1,"2025-01-21","H053","OS","2025-01-01","2025-01-21",21,"DAYS",1,"Control","Y"
1,"2025-01-21","H054","OS","2025-01-01","2025-01-21",21,"DAYS",1,"Treatment","Y"
1,"2025-01-21","H055","OS","2025-01-01","2025-01-21",21,"DAYS",1,"Control","Y"
1,"2025-01-21","H056","OS","2025-01-01","2025-01-21",21,"DAYS",1,"Treatment","Y"
1,"2025-01-21","H057","OS","2025-01-01","2025-01-21",21,"DAYS",1,"Control","Y"
1,"2025-01-21","H058","OS","2025-01-01","2025-01-21",21,"DAYS",1,"Treatment","Y"
1,"2025-01-21","H059","OS","2025-01-01","2025-01-21",21,"DAYS",1,"Control","Y"
1,"2025-01-21","H060","OS","2025-01-01","2025-01-21",21,"DAYS",1,"Treatment","Y"
1,"2025-01-21","H061","OS","2025-01-01","2025-01-21",21,"DAYS",1,"Control","Y"
1,"2025-01-21","H062","OS","2025-01-01","2025-01-21",21,"DAYS",1,"Treatment","Y"
1,"2025-01-21","H063","OS","2025-01-01","2025-01-21",21,"DAYS",1,"Control","Y"
1,"2025-01-21","H064","OS","2025-01-01","2025-01-21",21,"DAYS",1,"Treatment","Y"
1,"2025-01-21","H065","OS","2025-01-01","2025-01-21",21,"DAYS",1,"Control","Y"
1,"2025-01-21","H066","OS","2025-01-01","2025-01-21",21,"DAYS",1,"Treatment","Y"
1,"2025-01-21","H067","OS","2025-01-01","2025-01-21",21,"DAYS",1,"Control","Y"
1,"2025-01-21","H068","OS","2025-01-01","2025-01-21",21,"DAYS",1,"Treatment","Y"
1,"2025-01-21","H069","OS","2025-01-01","2025-01-21",21,"DAYS",1,"Control","Y"
1,"2025-01-21","H070","OS","2025-01-01","2025-01-21",21,"DAYS",1,"Treatment","Y"
1,"2025-01-21","H071","OS","2025-01-01","2025-01-21",21,"DAYS",1,"Control","Y"
1,"2025-01-21","H072","OS","2025-01-01","2025-01-21",21,"DAYS",1,"Treatment","Y"
1,"2025-01-21","H073","OS","2025-01-01","2025-01-21",21,"DAYS",1,"Control","Y"
1,"2025-01-21","H074","OS","2025-01-01","2025-01-21",21,"DAYS",1,"Treatment","Y"
1,"2025-01-21","H075","OS","2025-01-01","2025-01-21",21,"DAYS",1,"Control","Y"
1,"2025-01-21","H076","OS","2025-01-01","2025-01-21",21,"DAYS",1,"Treatment","Y"
1,"2025-01-21","H077","OS","2025-01-01","2025-01-21",21,"DAYS",1,"Control","Y"
1,"2025-01-21","H078","OS","2025-01-01","2025-01-21",21,"DAYS",1,"Treatment","Y"
1,"2025-01-21","H079","OS","2025-01-01","2025-01-21",21,"DAYS",1,"Control","Y"
1,"2025-01-21","H080","OS","2025-01-01","2025-01-21",21,"DAYS",1,"Treatment","Y"
1,"2025-01-21","H081","OS","2025-01-01","2025-01-21",21,"DAYS",1,"Control","Y"
1,"2025-01-21","H082","OS","2025-01-01","2025-01-21",21,"DAYS",1,"Treatment","Y"
1,"2025-01-21","H083","OS","2025-01-01","2025-01-21",21,"DAYS",1,"Control","Y"
1,"2025-01-21","H084","OS","2025-01-01","2025-01-21",21,"DAYS",1,"Treatment","Y"
1,"2025-01-21","H085","OS","2025-01-01","2025-01-21",21,"DAYS",1,"Control","Y"
1,"2025-01-21","H086","OS","2025-01-01","2025-01-21",21,"DAYS",1,"Treatment","Y"
1,"2025-01-21","H087","OS","2025-01-01","2025-01-21",21,"DAYS",1,"Control","Y"
1,"2025-01-21","H088","OS","2025-01-01","2025-01-21",21,"DAYS",1,"Treatment","Y"
1,"2025-01-21","H089","OS","2025-01-01","2025-01-21",21,"DAYS",1,"Control","Y"
1,"2025-01-21","H090","OS","2025-01-01","2025-01-13",13,"DAYS",2,"Treatment","Y"
1,"2025-01-21","H091","OS","2025-01-01","2025-01-21",21,"DAYS",1,"Control","Y"
1,"2025-01-21","H092","OS","2025-01-01","2025-01-21",21,"DAYS",1,"Treatment","Y"
1,"2025-01-21","H093","OS","2025-01-01","2025-01-21",21,"DAYS",1,"Control","Y"
1,"2025-01-21","H094","OS","2025-01-01","2025-01-21",21,"DAYS",1,"Treatment","Y"
1,"2025-01-21","H095","OS","2025-01-01","2025-01-21",21,"DAYS",1,"Control","Y"
1,"2025-01-21","H096","OS","2025-01-01","2025-01-21",21,"DAYS",1,"Treatment","Y"
1,"2025-01-21","H097","OS","2025-01-01","2025-01-21",21,"DAYS",1,"Control","Y"
1,"2025-01-21","H098","OS","2025-01-01","2025-01-21",21,"DAYS",1,"Treatment","Y"
1,"2025-01-21","H099","OS","2025-01-01","2025-01-21",21,"DAYS",1,"Control","Y"
1,"2025-01-21","H100","OS","2025-01-01","2025-01-21",21,"DAYS",1,"Treatment","Y"
2,"2025-02-10","H001","OS","2025-01-01","2025-01-02",2,"DAYS",0,"Control","Y"
2,"2025-02-10","H002","OS","2025-01-01","2025-01-03",3,"DAYS",0,"Treatment","Y"
2,"2025-02-10","H003","OS","2025-01-01","2025-01-04",4,"DAYS",0,"Control","Y"
2,"2025-02-10","H004","OS","2025-01-01","2025-01-05",5,"DAYS",0,"Treatment","Y"
2,"2025-02-10","H005","OS","2025-01-01","2025-01-06",6,"DAYS",0,"Control","Y"
2,"2025-02-10","H006","OS","2025-01-01","2025-01-07",7,"DAYS",0,"Treatment","Y"
2,"2025-02-10","H007","OS","2025-01-01","2025-01-08",8,"DAYS",0,"Control","Y"
2,"2025-02-10","H008","OS","2025-01-01","2025-01-09",9,"DAYS",0,"Treatment","Y"
2,"2025-02-10","H009","OS","2025-01-01","2025-01-10",10,"DAYS",0,"Control","Y"
2,"2025-02-10","H010","OS","2025-01-01","2025-01-11",11,"DAYS",0,"Treatment","Y"
2,"2025-02-10","H011","OS","2025-01-01","2025-01-12",12,"DAYS",0,"Control","Y"
2,"2025-02-10","H012","OS","2025-01-01","2025-01-13",13,"DAYS",0,"Treatment","Y"
2,"2025-02-10","H013","OS","2025-01-01","2025-01-14",14,"DAYS",0,"Control","Y"
2,"2025-02-10","H014","OS","2025-01-01","2025-01-15",15,"DAYS",0,"Treatment","Y"
2,"2025-02-10","H015","OS","2025-01-01","2025-01-16",16,"DAYS",0,"Control","Y"
2,"2025-02-10","H016","OS","2025-01-01","2025-01-17",17,"DAYS",0,"Treatment","Y"
2,"2025-02-10","H017","OS","2025-01-01","2025-01-18",18,"DAYS",0,"Control","Y"
2,"2025-02-10","H018","OS","2025-01-01","2025-01-19",19,"DAYS",0,"Treatment","Y"
2,"2025-02-10","H019","OS","2025-01-01","2025-01-20",20,"DAYS",0,"Control","Y"
2,"2025-02-10","H020","OS","2025-01-01","2025-01-21",21,"DAYS",0,"Treatment","Y"
2,"2025-02-10","H021","OS","2025-01-01","2025-01-22",22,"DAYS",0,"Control","Y"
2,"2025-02-10","H022","OS","2025-01-01","2025-01-23",23,"DAYS",0,"Treatment","Y"
2,"2025-02-10","H023","OS","2025-01-01","2025-01-24",24,"DAYS",0,"Control","Y"
2,"2025-02-10","H024","OS","2025-01-01","2025-01-25",25,"DAYS",0,"Treatment","Y"
2,"2025-02-10","H025","OS","2025-01-01","2025-01-26",26,"DAYS",0,"Control","Y"
2,"2025-02-10","H026","OS","2025-01-01","2025-01-27",27,"DAYS",0,"Treatment","Y"
2,"2025-02-10","H027","OS","2025-01-01","2025-01-28",28,"DAYS",0,"Control","Y"
2,"2025-02-10","H028","OS","2025-01-01","2025-01-29",29,"DAYS",0,"Treatment","Y"
2,"2025-02-10","H029","OS","2025-01-01","2025-01-30",30,"DAYS",0,"Control","Y"
2,"2025-02-10","H030","OS","2025-01-01","2025-01-31",31,"DAYS",0,"Treatment","Y"
2,"2025-02-10","H031","OS","2025-01-01","2025-02-01",32,"DAYS",0,"Control","Y"
2,"2025-02-10","H032","OS","2025-01-01","2025-02-02",33,"DAYS",0,"Treatment","Y"
2,"2025-02-10","H033","OS","2025-01-01","2025-02-03",34,"DAYS",0,"Control","Y"
2,"2025-02-10","H034","OS","2025-01-01","2025-02-04",35,"DAYS",0,"Treatment","Y"
2,"2025-02-10","H035","OS","2025-01-01","2025-02-05",36,"DAYS",0,"Control","Y"
2,"2025-02-10","H036","OS","2025-01-01","2025-02-06",37,"DAYS",0,"Treatment","Y"
2,"2025-02-10","H037","OS","2025-01-01","2025-02-07",38,"DAYS",0,"Control","Y"
2,"2025-02-10","H038","OS","2025-01-01","2025-02-08",39,"DAYS",0,"Treatment","Y"
2,"2025-02-10","H039","OS","2025-01-01","2025-02-09",40,"DAYS",0,"Control","Y"
2,"2025-02-10","H040","OS","2025-01-01","2025-02-10",41,"DAYS",0,"Treatment","Y"
2,"2025-02-10","H041","OS","2025-01-01","2025-02-10",41,"DAYS",1,"Control","Y"
2,"2025-02-10","H042","OS","2025-01-01","2025-02-10",41,"DAYS",1,"Treatment","Y"
2,"2025-02-10","H043","OS","2025-01-01","2025-02-10",41,"DAYS",1,"Control","Y"
2,"2025-02-10","H044","OS","2025-01-01","2025-02-10",41,"DAYS",1,"Treatment","Y"
2,"2025-02-10","H045","OS","2025-01-01","2025-02-10",41,"DAYS",1,"Control","Y"
2,"2025-02-10","H046","OS","2025-01-01","2025-02-10",41,"DAYS",1,"Treatment","Y"
2,"2025-02-10","H047","OS","2025-01-01","2025-02-10",41,"DAYS",1,"Control","Y"
2,"2025-02-10","H048","OS","2025-01-01","2025-02-10",41,"DAYS",1,"Treatment","Y"
2,"2025-02-10","H049","OS","2025-01-01","2025-02-10",41,"DAYS",1,"Control","Y"
2,"2025-02-10","H050","OS","2025-01-01","2025-02-10",41,"DAYS",1,"Treatment","Y"
2,"2025-02-10","H051","OS","2025-01-01","2025-02-10",41,"DAYS",1,"Control","Y"
2,"2025-02-10","H052","OS","2025-01-01","2025-02-10",41,"DAYS",1,"Treatment","Y"
2,"2025-02-10","H053","OS","2025-01-01","2025-02-10",41,"DAYS",1,"Control","Y"
2,"2025-02-10","H054","OS","2025-01-01","2025-02-10",41,"DAYS",1,"Treatment","Y"
2,"2025-02-10","H055","OS","2025-01-01","2025-02-10",41,"DAYS",1,"Control","Y"
2,"2025-02-10","H056","OS","2025-01-01","2025-02-10",41,"DAYS",1,"Treatment","Y"
2,"2025-02-10","H057","OS","2025-01-01","2025-02-10",41,"DAYS",1,"Control","Y"
2,"2025-02-10","H058","OS","2025-01-01","2025-02-10",41,"DAYS",1,"Treatment","Y"
2,"2025-02-10","H059","OS","2025-01-01","2025-02-10",41,"DAYS",1,"Control","Y"
2,"2025-02-10","H060","OS","2025-01-01","2025-02-10",41,"DAYS",1,"Treatment","Y"
2,"2025-02-10","H061","OS","2025-01-01","2025-02-10",41,"DAYS",1,"Control","Y"
2,"2025-02-10","H062","OS","2025-01-01","2025-02-10",41,"DAYS",1,"Treatment","Y"
2,"2025-02-10","H063","OS","2025-01-01","2025-02-10",41,"DAYS",1,"Control","Y"
2,"2025-02-10","H064","OS","2025-01-01","2025-02-10",41,"DAYS",1,"Treatment","Y"
2,"2025-02-10","H065","OS","2025-01-01","2025-02-10",41,"DAYS",1,"Control","Y"
2,"2025-02-10","H066","OS","2025-01-01","2025-02-10",41,"DAYS",1,"Treatment","Y"
2,"2025-02-10","H067","OS","2025-01-01","2025-02-10",41,"DAYS",1,"Control","Y"
2,"2025-02-10","H068","OS","2025-01-01","2025-02-10",41,"DAYS",1,"Treatment","Y"
2,"2025-02-10","H069","OS","2025-01-01","2025-02-10",41,"DAYS",1,"Control","Y"
2,"2025-02-10","H070","OS","2025-01-01","2025-02-10",41,"DAYS",1,"Treatment","Y"
2,"2025-02-10","H071","OS","2025-01-01","2025-02-10",41,"DAYS",1,"Control","Y"
2,"2025-02-10","H072","OS","2025-01-01","2025-02-10",41,"DAYS",1,"Treatment","Y"
2,"2025-02-10","H073","OS","2025-01-01","2025-02-10",41,"DAYS",1,"Control","Y"
2,"2025-02-10","H074","OS","2025-01-01","2025-02-10",41,"DAYS",1,"Treatment","Y"
2,"2025-02-10","H075","OS","2025-01-01","2025-02-10",41,"DAYS",1,"Control","Y"
2,"2025-02-10","H076","OS","2025-01-01","2025-02-10",41,"DAYS",1,"Treatment","Y"
2,"2025-02-10","H077","OS","2025-01-01","2025-02-10",41,"DAYS",1,"Control","Y"
2,"2025-02-10","H078","OS","2025-01-01","2025-02-10",41,"DAYS",1,"Treatment","Y"
2,"2025-02-10","H079","OS","2025-01-01","2025-02-10",41,"DAYS",1,"Control","Y"
2,"2025-02-10","H080","OS","2025-01-01","2025-02-10",41,"DAYS",1,"Treatment","Y"
2,"2025-02-10","H081","OS","2025-01-01","2025-02-10",41,"DAYS",1,"Control","Y"
2,"2025-02-10","H082","OS","2025-01-01","2025-02-10",41,"DAYS",1,"Treatment","Y"
2,"2025-02-10","H083","OS","2025-01-01","2025-02-10",41,"DAYS",1,"Control","Y"
2,"2025-02-10","H084","OS","2025-01-01","2025-02-10",41,"DAYS",1,"Treatment","Y"
2,"2025-02-10","H085","OS","2025-01-01","2025-02-10",41,"DAYS",1,"Control","Y"
2,"2025-02-10","H086","OS","2025-01-01","2025-02-10",41,"DAYS",1,"Treatment","Y"
2,"2025-02-10","H087","OS","2025-01-01","2025-02-10",41,"DAYS",1,"Control","Y"
2,"2025-02-10","H088","OS","2025-01-01","2025-02-10",41,"DAYS",1,"Treatment","Y"
2,"2025-02-10","H089","OS","2025-01-01","2025-02-10",41,"DAYS",1,"Control","Y"
2,"2025-02-10","H090","OS","2025-01-01","2025-01-13",13,"DAYS",2,"Treatment","Y"
2,"2025-02-10","H091","OS","2025-01-01","2025-02-10",41,"DAYS",1,"Control","Y"
2,"2025-02-10","H092","OS","2025-01-01","2025-02-10",41,"DAYS",1,"Treatment","Y"
2,"2025-02-10","H093","OS","2025-01-01","2025-02-10",41,"DAYS",1,"Control","Y"
2,"2025-02-10","H094","OS","2025-01-01","2025-02-10",41,"DAYS",1,"Treatment","Y"
2,"2025-02-10","H095","OS","2025-01-01","2025-02-10",41,"DAYS",1,"Control","Y"
2,"2025-02-10","H096","OS","2025-01-01","2025-02-10",41,"DAYS",1,"Treatment","Y"
2,"2025-02-10","H097","OS","2025-01-01","2025-02-10",41,"DAYS",1,"Control","Y"
2,"2025-02-10","H098","OS","2025-01-01","2025-02-10",41,"DAYS",1,"Treatment","Y"
2,"2025-02-10","H099","OS","2025-01-01","2025-02-10",41,"DAYS",1,"Control","Y"
2,"2025-02-10","H100","OS","2025-01-01","2025-02-10",41,"DAYS",1,"Treatment","Y"
2,"2025-02-10","H101","OS","2025-01-26","2025-02-10",16,"DAYS",1,"Control","Y"
2,"2025-02-10","H102","OS","2025-01-26","2025-02-10",16,"DAYS",1,"Treatment","Y"
2,"2025-02-10","H103","OS","2025-01-26","2025-02-10",16,"DAYS",1,"Control","Y"
2,"2025-02-10","H104","OS","2025-01-26","2025-02-10",16,"DAYS",1,"Treatment","Y"
2,"2025-02-10","H105","OS","2025-01-26","2025-02-10",16,"DAYS",1,"Control","Y"
2,"2025-02-10","H106","OS","2025-01-26","2025-02-10",16,"DAYS",1,"Treatment","Y"
2,"2025-02-10","H107","OS","2025-01-26","2025-02-10",16,"DAYS",1,"Control","Y"
2,"2025-02-10","H108","OS","2025-01-26","2025-02-10",16,"DAYS",1,"Treatment","Y"
2,"2025-02-10","H109","OS","2025-01-26","2025-02-10",16,"DAYS",1,"Control","Y"
2,"2025-02-10","H110","OS","2025-01-26","2025-02-10",16,"DAYS",1,"Treatment","Y"
2,"2025-02-10","H111","OS","2025-01-26","2025-02-10",16,"DAYS",1,"Control","Y"
2,"2025-02-10","H112","OS","2025-01-26","2025-02-10",16,"DAYS",1,"Treatment","Y"
2,"2025-02-10","H113","OS","2025-01-26","2025-02-10",16,"DAYS",1,"Control","Y"
2,"2025-02-10","H114","OS","2025-01-26","2025-02-10",16,"DAYS",1,"Treatment","Y"
2,"2025-02-10","H115","OS","2025-01-26","2025-02-10",16,"DAYS",1,"Control","Y"
2,"2025-02-10","H116","OS","2025-01-26","2025-02-10",16,"DAYS",1,"Treatment","Y"
2,"2025-02-10","H117","OS","2025-01-26","2025-02-10",16,"DAYS",1,"Control","Y"
2,"2025-02-10","H118","OS","2025-01-26","2025-02-10",16,"DAYS",1,"Treatment","Y"
2,"2025-02-10","H119","OS","2025-01-26","2025-02-10",16,"DAYS",1,"Control","Y"
2,"2025-02-10","H120","OS","2025-01-26","2025-02-10",16,"DAYS",1,"Treatment","Y"
3,"2025-03-02","H001","OS","2025-01-01","2025-01-02",2,"DAYS",0,"Control","Y"
3,"2025-03-02","H002","OS","2025-01-01","2025-01-03",3,"DAYS",0,"Treatment","Y"
3,"2025-03-02","H003","OS","2025-01-01","2025-01-04",4,"DAYS",0,"Control","Y"
3,"2025-03-02","H004","OS","2025-01-01","2025-01-05",5,"DAYS",0,"Treatment","Y"
3,"2025-03-02","H005","OS","2025-01-01","2025-01-06",6,"DAYS",0,"Control","Y"
3,"2025-03-02","H006","OS","2025-01-01","2025-01-07",7,"DAYS",0,"Treatment","Y"
3,"2025-03-02","H007","OS","2025-01-01","2025-01-08",8,"DAYS",0,"Control","Y"
3,"2025-03-02","H008","OS","2025-01-01","2025-01-09",9,"DAYS",0,"Treatment","Y"
3,"2025-03-02","H009","OS","2025-01-01","2025-01-10",10,"DAYS",0,"Control","Y"
3,"2025-03-02","H010","OS","2025-01-01","2025-01-11",11,"DAYS",0,"Treatment","Y"
3,"2025-03-02","H011","OS","2025-01-01","2025-01-12",12,"DAYS",0,"Control","Y"
3,"2025-03-02","H012","OS","2025-01-01","2025-01-13",13,"DAYS",0,"Treatment","Y"
3,"2025-03-02","H013","OS","2025-01-01","2025-01-14",14,"DAYS",0,"Control","Y"
3,"2025-03-02","H014","OS","2025-01-01","2025-01-15",15,"DAYS",0,"Treatment","Y"
3,"2025-03-02","H015","OS","2025-01-01","2025-01-16",16,"DAYS",0,"Control","Y"
3,"2025-03-02","H016","OS","2025-01-01","2025-01-17",17,"DAYS",0,"Treatment","Y"
3,"2025-03-02","H017","OS","2025-01-01","2025-01-18",18,"DAYS",0,"Control","Y"
3,"2025-03-02","H018","OS","2025-01-01","2025-01-19",19,"DAYS",0,"Treatment","Y"
3,"2025-03-02","H019","OS","2025-01-01","2025-01-20",20,"DAYS",0,"Control","Y"
3,"2025-03-02","H020","OS","2025-01-01","2025-01-21",21,"DAYS",0,"Treatment","Y"
3,"2025-03-02","H021","OS","2025-01-01","2025-01-22",22,"DAYS",0,"Control","Y"
3,"2025-03-02","H022","OS","2025-01-01","2025-01-23",23,"DAYS",0,"Treatment","Y"
3,"2025-03-02","H023","OS","2025-01-01","2025-01-24",24,"DAYS",0,"Control","Y"
3,"2025-03-02","H024","OS","2025-01-01","2025-01-25",25,"DAYS",0,"Treatment","Y"
3,"2025-03-02","H025","OS","2025-01-01","2025-01-26",26,"DAYS",0,"Control","Y"
3,"2025-03-02","H026","OS","2025-01-01","2025-01-27",27,"DAYS",0,"Treatment","Y"
3,"2025-03-02","H027","OS","2025-01-01","2025-01-28",28,"DAYS",0,"Control","Y"
3,"2025-03-02","H028","OS","2025-01-01","2025-01-29",29,"DAYS",0,"Treatment","Y"
3,"2025-03-02","H029","OS","2025-01-01","2025-01-30",30,"DAYS",0,"Control","Y"
3,"2025-03-02","H030","OS","2025-01-01","2025-01-31",31,"DAYS",0,"Treatment","Y"
3,"2025-03-02","H031","OS","2025-01-01","2025-02-01",32,"DAYS",0,"Control","Y"
3,"2025-03-02","H032","OS","2025-01-01","2025-02-02",33,"DAYS",0,"Treatment","Y"
3,"2025-03-02","H033","OS","2025-01-01","2025-02-03",34,"DAYS",0,"Control","Y"
3,"2025-03-02","H034","OS","2025-01-01","2025-02-04",35,"DAYS",0,"Treatment","Y"
3,"2025-03-02","H035","OS","2025-01-01","2025-02-05",36,"DAYS",0,"Control","Y"
3,"2025-03-02","H036","OS","2025-01-01","2025-02-06",37,"DAYS",0,"Treatment","Y"
3,"2025-03-02","H037","OS","2025-01-01","2025-02-07",38,"DAYS",0,"Control","Y"
3,"2025-03-02","H038","OS","2025-01-01","2025-02-08",39,"DAYS",0,"Treatment","Y"
3,"2025-03-02","H039","OS","2025-01-01","2025-02-09",40,"DAYS",0,"Control","Y"
3,"2025-03-02","H040","OS","2025-01-01","2025-02-10",41,"DAYS",0,"Treatment","Y"
3,"2025-03-02","H041","OS","2025-01-01","2025-02-11",42,"DAYS",0,"Control","Y"
3,"2025-03-02","H042","OS","2025-01-01","2025-02-12",43,"DAYS",0,"Treatment","Y"
3,"2025-03-02","H043","OS","2025-01-01","2025-02-13",44,"DAYS",0,"Control","Y"
3,"2025-03-02","H044","OS","2025-01-01","2025-02-14",45,"DAYS",0,"Treatment","Y"
3,"2025-03-02","H045","OS","2025-01-01","2025-02-15",46,"DAYS",0,"Control","Y"
3,"2025-03-02","H046","OS","2025-01-01","2025-02-16",47,"DAYS",0,"Treatment","Y"
3,"2025-03-02","H047","OS","2025-01-01","2025-02-17",48,"DAYS",0,"Control","Y"
3,"2025-03-02","H048","OS","2025-01-01","2025-02-18",49,"DAYS",0,"Treatment","Y"
3,"2025-03-02","H049","OS","2025-01-01","2025-02-19",50,"DAYS",0,"Control","Y"
3,"2025-03-02","H050","OS","2025-01-01","2025-02-20",51,"DAYS",0,"Treatment","Y"
3,"2025-03-02","H051","OS","2025-01-01","2025-02-21",52,"DAYS",0,"Control","Y"
3,"2025-03-02","H052","OS","2025-01-01","2025-02-22",53,"DAYS",0,"Treatment","Y"
3,"2025-03-02","H053","OS","2025-01-01","2025-02-23",54,"DAYS",0,"Control","Y"
3,"2025-03-02","H054","OS","2025-01-01","2025-02-24",55,"DAYS",0,"Treatment","Y"
3,"2025-03-02","H055","OS","2025-01-01","2025-02-25",56,"DAYS",0,"Control","Y"
3,"2025-03-02","H056","OS","2025-01-01","2025-02-26",57,"DAYS",0,"Treatment","Y"
3,"2025-03-02","H057","OS","2025-01-01","2025-02-27",58,"DAYS",0,"Control","Y"
3,"2025-03-02","H058","OS","2025-01-01","2025-02-28",59,"DAYS",0,"Treatment","Y"
3,"2025-03-02","H059","OS","2025-01-01","2025-03-01",60,"DAYS",0,"Control","Y"
3,"2025-03-02","H060","OS","2025-01-01","2025-03-02",61,"DAYS",0,"Treatment","Y"
3,"2025-03-02","H061","OS","2025-01-01","2025-03-02",61,"DAYS",1,"Control","Y"
3,"2025-03-02","H062","OS","2025-01-01","2025-03-02",61,"DAYS",1,"Treatment","Y"
3,"2025-03-02","H063","OS","2025-01-01","2025-03-02",61,"DAYS",1,"Control","Y"
3,"2025-03-02","H064","OS","2025-01-01","2025-03-02",61,"DAYS",1,"Treatment","Y"
3,"2025-03-02","H065","OS","2025-01-01","2025-03-02",61,"DAYS",1,"Control","Y"
3,"2025-03-02","H066","OS","2025-01-01","2025-03-02",61,"DAYS",1,"Treatment","Y"
3,"2025-03-02","H067","OS","2025-01-01","2025-03-02",61,"DAYS",1,"Control","Y"
3,"2025-03-02","H068","OS","2025-01-01","2025-03-02",61,"DAYS",1,"Treatment","Y"
3,"2025-03-02","H069","OS","2025-01-01","2025-03-02",61,"DAYS",1,"Control","Y"
3,"2025-03-02","H070","OS","2025-01-01","2025-03-02",61,"DAYS",1,"Treatment","Y"
3,"2025-03-02","H071","OS","2025-01-01","2025-03-02",61,"DAYS",1,"Control","Y"
3,"2025-03-02","H072","OS","2025-01-01","2025-03-02",61,"DAYS",1,"Treatment","Y"
3,"2025-03-02","H073","OS","2025-01-01","2025-03-02",61,"DAYS",1,"Control","Y"
3,"2025-03-02","H074","OS","2025-01-01","2025-03-02",61,"DAYS",1,"Treatment","Y"
3,"2025-03-02","H075","OS","2025-01-01","2025-03-02",61,"DAYS",1,"Control","Y"
3,"2025-03-02","H076","OS","2025-01-01","2025-03-02",61,"DAYS",1,"Treatment","Y"
3,"2025-03-02","H077","OS","2025-01-01","2025-03-02",61,"DAYS",1,"Control","Y"
3,"2025-03-02","H078","OS","2025-01-01","2025-03-02",61,"DAYS",1,"Treatment","Y"
3,"2025-03-02","H079","OS","2025-01-01","2025-03-02",61,"DAYS",1,"Control","Y"
3,"2025-03-02","H080","OS","2025-01-01","2025-03-02",61,"DAYS",1,"Treatment","Y"
3,"2025-03-02","H081","OS","2025-01-01","2025-03-02",61,"DAYS",1,"Control","Y"
3,"2025-03-02","H082","OS","2025-01-01","2025-03-02",61,"DAYS",1,"Treatment","Y"
3,"2025-03-02","H083","OS","2025-01-01","2025-03-02",61,"DAYS",1,"Control","Y"
3,"2025-03-02","H084","OS","2025-01-01","2025-03-02",61,"DAYS",1,"Treatment","Y"
3,"2025-03-02","H085","OS","2025-01-01","2025-03-02",61,"DAYS",1,"Control","Y"
3,"2025-03-02","H086","OS","2025-01-01","2025-03-02",61,"DAYS",1,"Treatment","Y"
3,"2025-03-02","H087","OS","2025-01-01","2025-03-02",61,"DAYS",1,"Control","Y"
3,"2025-03-02","H088","OS","2025-01-01","2025-03-02",61,"DAYS",1,"Treatment","Y"
3,"2025-03-02","H089","OS","2025-01-01","2025-03-02",61,"DAYS",1,"Control","Y"
3,"2025-03-02","H090","OS","2025-01-01","2025-01-13",13,"DAYS",2,"Treatment","Y"
3,"2025-03-02","H091","OS","2025-01-01","2025-03-02",61,"DAYS",1,"Control","Y"
3,"2025-03-02","H092","OS","2025-01-01","2025-03-02",61,"DAYS",1,"Treatment","Y"
3,"2025-03-02","H093","OS","2025-01-01","2025-03-02",61,"DAYS",1,"Control","Y"
3,"2025-03-02","H094","OS","2025-01-01","2025-03-02",61,"DAYS",1,"Treatment","Y"
3,"2025-03-02","H095","OS","2025-01-01","2025-03-02",61,"DAYS",1,"Control","Y"
3,"2025-03-02","H096","OS","2025-01-01","2025-03-02",61,"DAYS",1,"Treatment","Y"
3,"2025-03-02","H097","OS","2025-01-01","2025-03-02",61,"DAYS",1,"Control","Y"
3,"2025-03-02","H098","OS","2025-01-01","2025-03-02",61,"DAYS",1,"Treatment","Y"
3,"2025-03-02","H099","OS","2025-01-01","2025-03-02",61,"DAYS",1,"Control","Y"
3,"2025-03-02","H100","OS","2025-01-01","2025-03-02",61,"DAYS",1,"Treatment","Y"
3,"2025-03-02","H101","OS","2025-01-26","2025-03-02",36,"DAYS",1,"Control","Y"
3,"2025-03-02","H102","OS","2025-01-26","2025-03-02",36,"DAYS",1,"Treatment","Y"
3,"2025-03-02","H103","OS","2025-01-26","2025-03-02",36,"DAYS",1,"Control","Y"
3,"2025-03-02","H104","OS","2025-01-26","2025-03-02",36,"DAYS",1,"Treatment","Y"
3,"2025-03-02","H105","OS","2025-01-26","2025-03-02",36,"DAYS",1,"Control","Y"
3,"2025-03-02","H106","OS","2025-01-26","2025-03-02",36,"DAYS",1,"Treatment","Y"
3,"2025-03-02","H107","OS","2025-01-26","2025-03-02",36,"DAYS",1,"Control","Y"
3,"2025-03-02","H108","OS","2025-01-26","2025-03-02",36,"DAYS",1,"Treatment","Y"
3,"2025-03-02","H109","OS","2025-01-26","2025-03-02",36,"DAYS",1,"Control","Y"
3,"2025-03-02","H110","OS","2025-01-26","2025-03-02",36,"DAYS",1,"Treatment","Y"
3,"2025-03-02","H111","OS","2025-01-26","2025-03-02",36,"DAYS",1,"Control","Y"
3,"2025-03-02","H112","OS","2025-01-26","2025-03-02",36,"DAYS",1,"Treatment","Y"
3,"2025-03-02","H113","OS","2025-01-26","2025-03-02",36,"DAYS",1,"Control","Y"
3,"2025-03-02","H114","OS","2025-01-26","2025-03-02",36,"DAYS",1,"Treatment","Y"
3,"2025-03-02","H115","OS","2025-01-26","2025-03-02",36,"DAYS",1,"Control","Y"
3,"2025-03-02","H116","OS","2025-01-26","2025-03-02",36,"DAYS",1,"Treatment","Y"
3,"2025-03-02","H117","OS","2025-01-26","2025-03-02",36,"DAYS",1,"Control","Y"
3,"2025-03-02","H118","OS","2025-01-26","2025-03-02",36,"DAYS",1,"Treatment","Y"
3,"2025-03-02","H119","OS","2025-01-26","2025-03-02",36,"DAYS",1,"Control","Y"
3,"2025-03-02","H120","OS","2025-01-26","2025-03-02",36,"DAYS",1,"Treatment","Y"
