"STUDYID","USUBJID","PARAMCD","PARAM","STARTDT","ADT","AVAL","AVALU","CNSR","TRTP","TRTA","EVNTDESC","ANL01FL"
"SYNTHETIC","DEMO0001","OS","Overall survival (days)",2025-01-05,2026-03-13,433,"DAYS",0,"Control","A","EVENT","Y"
"SYNTHETIC","DEMO0002","OS","Overall survival (days)",2025-01-13,2026-03-16,428,"DAYS",0,"Treatment","B","EVENT","Y"
"SYNTHETIC","DEMO0003","OS","Overall survival (days)",2025-01-14,2026-06-25,528,"DAYS",1,"Control","A","CUTOFF","Y"
"SYNTHETIC","DEMO0004","OS","Overall survival (days)",2025-01-22,2025-05-23,122,"DAYS",0,"Treatment","B","EVENT","Y"
"SYNTHETIC","DEMO0005","OS","Overall survival (days)",2025-01-25,2026-06-25,517,"DAYS",1,"Control","A","CUTOFF","Y"
"SYNTHETIC","DEMO0006","OS","Overall survival (days)",2025-02-04,2025-04-01,57,"DAYS",0,"Treatment","B","EVENT","Y"
"SYNTHETIC","DEMO0007","OS","Overall survival (days)",2025-02-06,2026-03-14,402,"DAYS",0,"Control","A","EVENT","Y"
"SYNTHETIC","DEMO0008","OS","Overall survival (days)",2025-02-10,2025-03-31,50,"DAYS",0,"Treatment","B","EVENT","Y"
"SYNTHETIC","DEMO0009","OS","Overall survival (days)",2025-02-16,2026-06-25,495,"DAYS",1,"Control","A","CUTOFF","Y"
"SYNTHETIC","DEMO0010","OS","Overall survival (days)",2025-03-04,2025-11-15,257,"DAYS",0,"Treatment","B","EVENT","Y"
"SYNTHETIC","DEMO0011","OS","Overall survival (days)",2025-03-14,2026-06-25,469,"DAYS",1,"Control","A","CUTOFF","Y"
"SYNTHETIC","DEMO0012","OS","Overall survival (days)",2025-03-20,2025-04-18,30,"DAYS",0,"Treatment","B","EVENT","Y"
"SYNTHETIC","DEMO0013","OS","Overall survival (days)",2025-03-26,2025-09-26,185,"DAYS",2,"Control","A","PERMANENT FOLLOW-UP EXIT","Y"
"SYNTHETIC","DEMO0014","OS","Overall survival (days)",2025-03-27,2026-06-02,433,"DAYS",0,"Treatment","B","EVENT","Y"
"SYNTHETIC","DEMO0015","OS","Overall survival (days)",2025-04-01,2026-06-25,451,"DAYS",1,"Control","A","CUTOFF","Y"
"SYNTHETIC","DEMO0016","OS","Overall survival (days)",2025-04-03,2026-06-25,449,"DAYS",1,"Treatment","B","CUTOFF","Y"
"SYNTHETIC","DEMO0017","OS","Overall survival (days)",2025-04-06,2026-06-25,446,"DAYS",1,"Control","A","CUTOFF","Y"
"SYNTHETIC","DEMO0018","OS","Overall survival (days)",2025-04-08,2026-03-18,345,"DAYS",0,"Treatment","B","EVENT","Y"
"SYNTHETIC","DEMO0019","OS","Overall survival (days)",2025-04-10,2025-06-17,69,"DAYS",2,"Control","A","PERMANENT FOLLOW-UP EXIT","Y"
"SYNTHETIC","DEMO0020","OS","Overall survival (days)",2025-04-14,2025-10-16,186,"DAYS",0,"Treatment","B","EVENT","Y"
"SYNTHETIC","DEMO0021","OS","Overall survival (days)",2025-04-14,2025-05-24,41,"DAYS",0,"Control","A","EVENT","Y"
"SYNTHETIC","DEMO0022","OS","Overall survival (days)",2025-04-15,2025-11-18,218,"DAYS",0,"Treatment","B","EVENT","Y"
"SYNTHETIC","DEMO0023","OS","Overall survival (days)",2025-04-15,2026-02-16,308,"DAYS",0,"Control","A","EVENT","Y"
"SYNTHETIC","DEMO0024","OS","Overall survival (days)",2025-04-21,2025-11-13,207,"DAYS",0,"Treatment","B","EVENT","Y"
"SYNTHETIC","DEMO0025","OS","Overall survival (days)",2025-04-25,2026-06-25,427,"DAYS",1,"Control","A","CUTOFF","Y"
"SYNTHETIC","DEMO0026","OS","Overall survival (days)",2025-04-29,2025-12-25,241,"DAYS",0,"Treatment","B","EVENT","Y"
"SYNTHETIC","DEMO0027","OS","Overall survival (days)",2025-05-06,2026-01-12,252,"DAYS",0,"Control","A","EVENT","Y"
"SYNTHETIC","DEMO0028","OS","Overall survival (days)",2025-05-10,2026-06-25,412,"DAYS",1,"Treatment","B","CUTOFF","Y"
"SYNTHETIC","DEMO0029","OS","Overall survival (days)",2025-05-12,2025-07-15,65,"DAYS",0,"Control","A","EVENT","Y"
"SYNTHETIC","DEMO0030","OS","Overall survival (days)",2025-05-13,2026-02-04,268,"DAYS",0,"Treatment","B","EVENT","Y"
"SYNTHETIC","DEMO0031","OS","Overall survival (days)",2025-05-22,2026-06-25,400,"DAYS",1,"Control","A","CUTOFF","Y"
"SYNTHETIC","DEMO0032","OS","Overall survival (days)",2025-05-23,2025-12-12,204,"DAYS",0,"Treatment","B","EVENT","Y"
"SYNTHETIC","DEMO0033","OS","Overall survival (days)",2025-05-28,2026-06-25,394,"DAYS",1,"Control","A","CUTOFF","Y"
"SYNTHETIC","DEMO0034","OS","Overall survival (days)",2025-06-02,2026-05-09,342,"DAYS",0,"Treatment","B","EVENT","Y"
"SYNTHETIC","DEMO0035","OS","Overall survival (days)",2025-06-06,2026-06-25,385,"DAYS",1,"Control","A","CUTOFF","Y"
"SYNTHETIC","DEMO0036","OS","Overall survival (days)",2025-06-09,2026-06-25,382,"DAYS",1,"Treatment","B","CUTOFF","Y"
"SYNTHETIC","DEMO0037","OS","Overall survival (days)",2025-06-16,2026-06-25,375,"DAYS",1,"Control","A","CUTOFF","Y"
"SYNTHETIC","DEMO0038","OS","Overall survival (days)",2025-06-19,2026-06-25,372,"DAYS",1,"Treatment","B","CUTOFF","Y"
"SYNTHETIC","DEMO0039","OS","Overall survival (days)",2025-06-26,2026-06-25,365,"DAYS",1,"Control","A","CUTOFF","Y"
"SYNTHETIC","DEMO0040","OS","Overall survival (days)",2025-07-02,2026-03-08,250,"DAYS",0,"Treatment","B","EVENT","Y"
"SYNTHETIC","DEMO0041","OS","Overall survival (days)",2025-07-03,2026-06-25,358,"DAYS",1,"Control","A","CUTOFF","Y"
"SYNTHETIC","DEMO0042","OS","Overall survival (days)",2025-07-12,2026-02-24,228,"DAYS",0,"Treatment","B","EVENT","Y"
"SYNTHETIC","DEMO0043","OS","Overall survival (days)",2025-07-17,2025-09-01,47,"DAYS",0,"Control","A","EVENT","Y"
"SYNTHETIC","DEMO0044","OS","Overall survival (days)",2025-07-28,2026-06-25,333,"DAYS",1,"Treatment","B","CUTOFF","Y"
"SYNTHETIC","DEMO0045","OS","Overall survival (days)",2025-08-01,2026-06-25,329,"DAYS",1,"Control","A","CUTOFF","Y"
"SYNTHETIC","DEMO0046","OS","Overall survival (days)",2025-08-04,2026-06-25,326,"DAYS",1,"Treatment","B","CUTOFF","Y"
"SYNTHETIC","DEMO0047","OS","Overall survival (days)",2025-08-04,2026-06-25,326,"DAYS",1,"Control","A","CUTOFF","Y"
"SYNTHETIC","DEMO0048","OS","Overall survival (days)",2025-08-08,2026-04-12,248,"DAYS",0,"Treatment","B","EVENT","Y"
"SYNTHETIC","DEMO0049","OS","Overall survival (days)",2025-08-15,2025-09-23,40,"DAYS",0,"Control","A","EVENT","Y"
"SYNTHETIC","DEMO0050","OS","Overall survival (days)",2025-08-19,2026-06-25,311,"DAYS",1,"Treatment","B","CUTOFF","Y"
"SYNTHETIC","DEMO0051","OS","Overall survival (days)",2025-08-25,2026-02-19,179,"DAYS",0,"Control","A","EVENT","Y"
"SYNTHETIC","DEMO0052","OS","Overall survival (days)",2025-08-31,2026-06-25,299,"DAYS",1,"Treatment","B","CUTOFF","Y"
"SYNTHETIC","DEMO0053","OS","Overall survival (days)",2025-09-01,2026-06-25,298,"DAYS",1,"Control","A","CUTOFF","Y"
"SYNTHETIC","DEMO0054","OS","Overall survival (days)",2025-09-09,2026-06-25,290,"DAYS",1,"Treatment","B","CUTOFF","Y"
"SYNTHETIC","DEMO0055","OS","Overall survival (days)",2025-09-12,2026-05-16,247,"DAYS",0,"Control","A","EVENT","Y"
"SYNTHETIC","DEMO0056","OS","Overall survival (days)",2025-09-20,2025-09-29,10,"DAYS",0,"Treatment","B","EVENT","Y"
"SYNTHETIC","DEMO0057","OS","Overall survival (days)",2025-09-25,2025-10-30,36,"DAYS",0,"Control","A","EVENT","Y"
"SYNTHETIC","DEMO0058","OS","Overall survival (days)",2025-10-03,2026-06-25,266,"DAYS",1,"Treatment","B","CUTOFF","Y"
"SYNTHETIC","DEMO0059","OS","Overall survival (days)",2025-10-03,2025-11-11,40,"DAYS",2,"Control","A","PERMANENT FOLLOW-UP EXIT","Y"
"SYNTHETIC","DEMO0060","OS","Overall survival (days)",2025-10-04,2026-06-25,265,"DAYS",1,"Treatment","B","CUTOFF","Y"
"SYNTHETIC","DEMO0061","OS","Overall survival (days)",2025-10-06,2026-06-25,263,"DAYS",1,"Control","A","CUTOFF","Y"
"SYNTHETIC","DEMO0062","OS","Overall survival (days)",2025-10-09,2026-06-25,260,"DAYS",1,"Treatment","B","CUTOFF","Y"
"SYNTHETIC","DEMO0063","OS","Overall survival (days)",2025-10-13,2026-03-14,153,"DAYS",0,"Control","A","EVENT","Y"
"SYNTHETIC","DEMO0064","OS","Overall survival (days)",2025-10-15,2026-02-07,116,"DAYS",0,"Treatment","B","EVENT","Y"
"SYNTHETIC","DEMO0065","OS","Overall survival (days)",2025-10-16,2026-06-25,253,"DAYS",1,"Control","A","CUTOFF","Y"
"SYNTHETIC","DEMO0066","OS","Overall survival (days)",2025-10-22,2026-06-25,247,"DAYS",1,"Treatment","B","CUTOFF","Y"
"SYNTHETIC","DEMO0067","OS","Overall survival (days)",2025-11-03,2025-12-01,29,"DAYS",0,"Control","A","EVENT","Y"
"SYNTHETIC","DEMO0068","OS","Overall survival (days)",2025-11-05,2026-06-25,233,"DAYS",1,"Treatment","B","CUTOFF","Y"
"SYNTHETIC","DEMO0069","OS","Overall survival (days)",2025-11-06,2026-02-23,110,"DAYS",0,"Control","A","EVENT","Y"
"SYNTHETIC","DEMO0070","OS","Overall survival (days)",2025-11-15,2026-06-25,223,"DAYS",1,"Treatment","B","CUTOFF","Y"
"SYNTHETIC","DEMO0071","OS","Overall survival (days)",2025-11-15,2026-06-25,223,"DAYS",1,"Control","A","CUTOFF","Y"
"SYNTHETIC","DEMO0072","OS","Overall survival (days)",2025-11-23,2026-06-25,215,"DAYS",1,"Treatment","B","CUTOFF","Y"
"SYNTHETIC","DEMO0073","OS","Overall survival (days)",2025-11-26,2026-06-25,212,"DAYS",1,"Control","A","CUTOFF","Y"
"SYNTHETIC","DEMO0074","OS","Overall survival (days)",2025-11-28,2026-03-12,105,"DAYS",2,"Treatment","B","PERMANENT FOLLOW-UP EXIT","Y"
"SYNTHETIC","DEMO0075","OS","Overall survival (days)",2025-12-02,2026-03-12,101,"DAYS",0,"Control","A","EVENT","Y"
"SYNTHETIC","DEMO0076","OS","Overall survival (days)",2025-12-03,2026-06-25,205,"DAYS",1,"Treatment","B","CUTOFF","Y"
"SYNTHETIC","DEMO0077","OS","Overall survival (days)",2025-12-08,2026-02-09,64,"DAYS",0,"Control","A","EVENT","Y"
"SYNTHETIC","DEMO0078","OS","Overall survival (days)",2025-12-09,2026-06-25,199,"DAYS",1,"Treatment","B","CUTOFF","Y"
"SYNTHETIC","DEMO0079","OS","Overall survival (days)",2025-12-20,2026-06-25,188,"DAYS",1,"Control","A","CUTOFF","Y"
"SYNTHETIC","DEMO0080","OS","Overall survival (days)",2025-12-26,2026-06-25,182,"DAYS",1,"Treatment","B","CUTOFF","Y"
"SYNTHETIC","DEMO0081","OS","Overall survival (days)",2025-12-26,2026-06-25,182,"DAYS",1,"Control","A","CUTOFF","Y"
"SYNTHETIC","DEMO0082","OS","Overall survival (days)",2025-12-30,2026-01-18,20,"DAYS",0,"Treatment","B","EVENT","Y"
"SYNTHETIC","DEMO0083","OS","Overall survival (days)",2026-01-02,2026-06-25,175,"DAYS",1,"Control","A","CUTOFF","Y"
"SYNTHETIC","DEMO0084","OS","Overall survival (days)",2026-01-04,2026-06-05,153,"DAYS",0,"Treatment","B","EVENT","Y"
"SYNTHETIC","DEMO0085","OS","Overall survival (days)",2026-01-06,2026-06-09,155,"DAYS",0,"Control","A","EVENT","Y"
"SYNTHETIC","DEMO0086","OS","Overall survival (days)",2026-01-09,2026-06-25,168,"DAYS",1,"Treatment","B","CUTOFF","Y"
"SYNTHETIC","DEMO0087","OS","Overall survival (days)",2026-01-19,2026-06-25,158,"DAYS",1,"Control","A","CUTOFF","Y"
"SYNTHETIC","DEMO0088","OS","Overall survival (days)",2026-01-31,2026-06-25,146,"DAYS",1,"Treatment","B","CUTOFF","Y"
"SYNTHETIC","DEMO0089","OS","Overall survival (days)",2026-02-13,2026-06-25,133,"DAYS",1,"Control","A","CUTOFF","Y"
"SYNTHETIC","DEMO0090","OS","Overall survival (days)",2026-02-20,2026-06-25,126,"DAYS",1,"Treatment","B","CUTOFF","Y"
"SYNTHETIC","DEMO0091","OS","Overall survival (days)",2026-02-21,2026-06-25,125,"DAYS",1,"Control","A","CUTOFF","Y"
"SYNTHETIC","DEMO0092","OS","Overall survival (days)",2026-02-22,2026-06-25,124,"DAYS",1,"Treatment","B","CUTOFF","Y"
"SYNTHETIC","DEMO0093","OS","Overall survival (days)",2026-02-22,2026-06-25,124,"DAYS",1,"Control","A","CUTOFF","Y"
"SYNTHETIC","DEMO0094","OS","Overall survival (days)",2026-02-28,2026-06-25,118,"DAYS",1,"Treatment","B","CUTOFF","Y"
"SYNTHETIC","DEMO0095","OS","Overall survival (days)",2026-03-02,2026-06-25,116,"DAYS",1,"Control","A","CUTOFF","Y"
"SYNTHETIC","DEMO0096","OS","Overall survival (days)",2026-03-12,2026-06-25,106,"DAYS",1,"Treatment","B","CUTOFF","Y"
"SYNTHETIC","DEMO0097","OS","Overall survival (days)",2026-03-14,2026-04-23,41,"DAYS",0,"Control","A","EVENT","Y"
"SYNTHETIC","DEMO0098","OS","Overall survival (days)",2026-03-17,2026-03-22,6,"DAYS",2,"Treatment","B","PERMANENT FOLLOW-UP EXIT","Y"
"SYNTHETIC","DEMO0099","OS","Overall survival (days)",2026-03-18,2026-06-25,100,"DAYS",1,"Control","A","CUTOFF","Y"
"SYNTHETIC","DEMO0100","OS","Overall survival (days)",2026-03-20,2026-06-25,98,"DAYS",1,"Treatment","B","CUTOFF","Y"
"SYNTHETIC","DEMO0101","OS","Overall survival (days)",2026-03-22,2026-06-25,96,"DAYS",1,"Control","A","CUTOFF","Y"
"SYNTHETIC","DEMO0102","OS","Overall survival (days)",2026-03-27,2026-06-25,91,"DAYS",1,"Treatment","B","CUTOFF","Y"
"SYNTHETIC","DEMO0103","OS","Overall survival (days)",2026-03-30,2026-06-25,88,"DAYS",1,"Control","A","CUTOFF","Y"
"SYNTHETIC","DEMO0104","OS","Overall survival (days)",2026-03-30,2026-06-25,88,"DAYS",1,"Treatment","B","CUTOFF","Y"
"SYNTHETIC","DEMO0105","OS","Overall survival (days)",2026-03-31,2026-06-25,87,"DAYS",1,"Control","A","CUTOFF","Y"
"SYNTHETIC","DEMO0106","OS","Overall survival (days)",2026-04-02,2026-06-25,85,"DAYS",1,"Treatment","B","CUTOFF","Y"
"SYNTHETIC","DEMO0107","OS","Overall survival (days)",2026-04-06,2026-06-25,81,"DAYS",1,"Control","A","CUTOFF","Y"
"SYNTHETIC","DEMO0108","OS","Overall survival (days)",2026-04-09,2026-06-25,78,"DAYS",1,"Treatment","B","CUTOFF","Y"
"SYNTHETIC","DEMO0109","OS","Overall survival (days)",2026-04-10,2026-06-25,77,"DAYS",1,"Control","A","CUTOFF","Y"
"SYNTHETIC","DEMO0110","OS","Overall survival (days)",2026-04-19,2026-06-25,68,"DAYS",1,"Treatment","B","CUTOFF","Y"
"SYNTHETIC","DEMO0111","OS","Overall survival (days)",2026-05-02,2026-06-25,55,"DAYS",1,"Control","A","CUTOFF","Y"
"SYNTHETIC","DEMO0112","OS","Overall survival (days)",2026-05-03,2026-06-25,54,"DAYS",1,"Treatment","B","CUTOFF","Y"
"SYNTHETIC","DEMO0113","OS","Overall survival (days)",2026-05-10,2026-06-25,47,"DAYS",1,"Control","A","CUTOFF","Y"
"SYNTHETIC","DEMO0114","OS","Overall survival (days)",2026-05-14,2026-06-25,43,"DAYS",1,"Treatment","B","CUTOFF","Y"
"SYNTHETIC","DEMO0115","OS","Overall survival (days)",2026-05-15,2026-06-25,42,"DAYS",1,"Control","A","CUTOFF","Y"
"SYNTHETIC","DEMO0116","OS","Overall survival (days)",2026-05-20,2026-06-25,37,"DAYS",1,"Treatment","B","CUTOFF","Y"
"SYNTHETIC","DEMO0117","OS","Overall survival (days)",2026-05-27,2026-06-22,27,"DAYS",0,"Control","A","EVENT","Y"
"SYNTHETIC","DEMO0118","OS","Overall survival (days)",2026-06-04,2026-06-25,22,"DAYS",1,"Treatment","B","CUTOFF","Y"
"SYNTHETIC","DEMO0119","OS","Overall survival (days)",2026-06-09,2026-06-25,17,"DAYS",1,"Control","A","CUTOFF","Y"
"SYNTHETIC","DEMO0120","OS","Overall survival (days)",2026-06-10,2026-06-25,16,"DAYS",1,"Treatment","B","CUTOFF","Y"
